timestamp_ms,AccX,AccY,AccZ,GyroX,GyroY,GyroZ,roll,pitch,yaw
1744022217316,0.0203,3.7556,1.0557,1.5536,0.0454,-64.7096,2655367017.9427,77563723.9706,-112854945459.4265
1744022217419,0.0137,3.7476,1.0608,2.3628,0.1294,-64.9768,2602259677.8728,76012449.5047,-112854945466.1244
1744022217522,0.0217,3.7473,1.0588,1.8437,0.1141,-64.931,2550214484.5522,74492200.5242,-112854945472.8151
1744022217625,0.0132,3.7539,1.0571,2.3094,0.053,-64.9157,2499210195.146,73002356.5196,-112854945479.5009
1744022217728,0.0193,3.7544,1.0566,1.5689,0.0759,-65.0836,2449225991.4534,71542309.3957,-112854945486.2071
1744022217832,0.0151,3.7483,1.0552,3.1872,-0.0081,-64.6103,2400241471.9981,70111463.2069,-112854945492.8645
1744022217935,0.0159,3.7488,1.0581,1.5918,0.2439,-64.931,2352236642.77,68709233.9672,-112854945499.5582
1744022218038,0.0156,3.7449,1.0605,2.7903,0.1217,-64.9997,2305191910.2463,67335049.3,-112854945506.2538
1744022218140,0.0081,3.75,1.0562,2.3323,-0.092,-64.9233,2259088072.3283,65988348.3068,-112854945512.9328
1744022218243,0.0129,3.7429,1.0603,2.8513,-0.0462,-65.0073,2213906311.219,64668581.3367,-112854945519.6165
1744022218346,0.0107,3.7412,1.0649,1.8361,0.053,-64.8852,2169628185.2282,63375209.7166,-112854945526.2874
1744022218449,0.0085,3.7456,1.053,2.8895,0.1065,-64.9768,2126235621.867,62107705.5349,-112854945532.9676
1744022218552,0.0146,3.7534,1.0603,3.0498,0.0454,-64.9768,2083710909.7878,60865551.4289,-112854945539.647
1744022218654,0.0161,3.748,1.062,1.546,0.1446,-64.9157,2042036691.7977,59648240.4146,-112854945546.3234
1744022218757,0.0146,3.7461,1.0525,2.9048,0.1904,-64.9691,2001195958.3069,58455275.6257,-112854945553.0034
1744022218860,0.0139,3.7502,1.0559,2.6071,-0.092,-65.1065,1961172039.4553,57286170.1042,-112854945559.6971
1744022218963,0.0193,3.7463,1.063,2.0727,-0.0997,-65.0455,1921948598.9246,56140446.6909,-112854945566.3869
1744022219068,0.0132,3.7537,1.0591,2.2025,0.0683,-64.8394,1883509627.2224,55017637.7646,-112854945573.1497
1744022219172,0.0132,3.7444,1.0525,2.3552,-0.1378,-64.9768,1845839434.9716,53917284.9958,-112854945579.944
1744022219277,0.0125,3.7476,1.0598,1.8437,-0.1226,-65.0378,1808922646.5115,52838939.2841,-112854945586.7398
1744022219382,0.0144,3.7468,1.0525,2.0956,-0.0615,-64.9233,1772744193.8484,51782160.4923,-112854945593.5267
1744022219486,0.0159,3.7378,1.0562,2.3552,-0.0691,-64.9691,1737289310.2633,50746517.2752,-112854945600.3118
1744022219590,0.0088,3.748,1.0637,2.4849,0.0301,-65.0684,1702543524.3617,49731586.9346,-112854945607.1062
1744022219695,0.0176,3.7456,1.0574,2.2941,-0.0997,-64.9539,1668492654.1601,48736955.185,-112854945613.8852
1744022219799,0.0139,3.7458,1.0623,1.5078,0.0835,-64.7859,1635122801.2809,47762216.0902,-112854945620.65
1744022219903,0.0156,3.7422,1.0537,2.0193,0.0683,-64.8775,1602420345.5136,46806971.7753,-112854945627.4215
1744022220008,0.0144,3.7493,1.0588,3.5384,0.0072,-65.0226,1570371939.0164,45870832.3407,-112854945634.2133
1744022220112,0.0217,3.7449,1.0588,2.8437,-0.1607,-64.9997,1538964500.5779,44953415.6755,-112854945641.0061
1744022220217,0.0208,3.7463,1.0547,4.3017,-0.0615,-64.9768,1508185211.06,44054347.354,-112854945647.8162
1744022220321,0.011,3.752,1.0601,1.6223,-0.1302,-64.992,1478021507.0553,43173260.3949,-112854945654.5892
1744022220426,0.0017,3.7437,1.0583,4.0193,0.0606,-64.8623,1448461077.3753,42309795.1971,-112854945661.3488
1744022220530,0.0103,3.7563,1.061,3.4468,0.137,-64.8852,1419491856.2312,41463599.3086,-112854945668.1215
1744022220635,0.0129,3.7522,1.0525,1.5155,-0.0233,-64.8241,1391102019.3146,40634327.3207,-112854945674.8915
1744022220739,0.02,3.752,1.0498,2.7979,-0.092,-64.9081,1363279979.2684,39821640.7634,-112854945681.672
1744022220843,0.0154,3.7561,1.0579,2.4849,-0.0004,-65.0684,1336014379.989,39025207.9481,-112854945688.4654
1744022220948,0.0159,3.7512,1.0581,2.1948,-0.1073,-64.8546,1309294092.6651,38244703.7779,-112854945695.2379
1744022221053,0.0161,3.749,1.0588,2.3246,-0.0386,-65.0378,1283108211.1011,37479809.6981,-112854945702.0445
1744022221157,0.0173,3.751,1.0513,3.2101,-0.0844,-65.0302,1257446047.2616,36730213.4948,-112854945708.8512
1744022221262,0.0095,3.7517,1.0591,2.5536,-0.0386,-64.8394,1232297126.6298,35995609.2226,-112854945715.6516
1744022221367,0.0144,3.7544,1.0559,2.7216,-0.0539,-64.8241,1207651184.4302,35275697.0329,-112854945722.4765
1744022221472,0.0176,3.749,1.0554,2.7597,0.0225,-64.9691,1183498161.0759,34570183.0938,-112854945729.261
1744022221576,0.0173,3.7544,1.0654,0.9964,-0.0081,-65.0989,1159828198.0058,33878779.4304,-112854945736.0651
1744022221681,0.0161,3.7495,1.0537,1.4162,0.0912,-65.0836,1136631634.2434,33201203.8509,-112854945742.8769
1744022221786,0.0186,3.7512,1.0537,2.6758,-0.0386,-64.9004,1113899001.8856,32537179.7689,-112854945749.6743
1744022221890,0.0154,3.7444,1.0601,2.5689,0.0377,-64.9081,1091621022.1615,31886436.1773,-112854945756.4668
1744022221995,0.0166,3.7507,1.0618,5.8513,0.0759,-64.7477,1069788602.3668,31248707.4611,-112854945763.2229
1744022222099,0.0171,3.7646,1.0598,4.5689,-0.1226,-64.8775,1048392830.8385,30623733.2988,-112854945769.9921
1744022222203,0.0242,3.7839,1.0759,2.9811,0.0835,434.9774,1027424974.5758,30011258.6388,-112854945724.5522
1744022222308,0.0181,3.7598,1.053,2.2941,0.1752,-64.7706,1006876475.3725,29411033.4831,-112854945731.3182
1744022222412,0.0125,3.7639,1.0659,2.0193,-0.1455,-64.8775,986738946.1217,28822812.7994,-112854945738.0925
1744022222517,0.0171,3.752,1.0645,1.4315,0.0606,-64.9997,967004167.3952,28246356.549,-112854945744.8752
1744022222621,0.0132,3.7634,1.0664,3.8513,0.053,-64.9004,947664084.4912,27681429.4241,-112854945751.6491
1744022222725,0.02,3.7544,1.0588,2.2406,-0.0844,-64.9157,928710803.0819,27127800.8255,-112854945758.4283
1744022222831,0.0198,3.7554,1.0642,4.8208,-0.092,-64.8012,910136587.5634,26585244.7982,-112854945765.1933
1744022222936,0.0178,3.7581,1.0557,2.63,-0.0462,-64.8852,891933856.1355,26053539.8967,-112854945772.0127
1744022223041,0.0171,3.7632,1.0562,1.4391,0.1981,-64.931,874095179.2137,25532469.1186,-112854945778.8334
1744022223146,0.0205,3.7598,1.0603,2.1567,0.1446,-64.8852,856613275.9029,25021819.7496,-112854945785.6532
1744022223251,0.02,3.7627,1.0664,2.3552,0.0301,-64.8241,839481010.6768,24521383.3563,-112854945792.4563
1744022223356,0.0181,3.761,1.0554,1.9582,-0.0386,-64.6027,822691390.7181,24030955.6843,-112854945799.2559
1744022223461,0.0134,3.7554,1.0562,0.4162,-0.1531,-64.9386,806237562.9986,23550336.5554,-112854945806.0617
1744022223566,0.0188,3.7573,1.0598,4.5536,0.0072,-64.9539,790112812.2593,23079329.824,-112854945812.8945
1744022223671,0.0217,3.7576,1.0557,2.4391,0.0835,-64.8699,774310556.3178,22617743.2342,-112854945819.7124
1744022223776,0.0215,3.7627,1.0603,2.3094,-0.0691,-65.0226,758824345.4809,22165388.3605,-112854945826.5482
1744022223881,0.0188,3.7625,1.061,2.0193,0.1065,-65.0455,743647858.8306,21722080.6032,-112854945833.3849
1744022223986,0.0212,3.7476,1.0635,0.4391,0.0759,-65.076,728774901.7487,21287638.9972,-112854945840.2289
1744022224091,0.011,3.7585,1.0571,5.3704,-0.0615,-64.9462,714199404.3173,20861886.2122,-112854945847.0337
1744022224196,0.0159,3.7761,1.0706,1.5918,-0.0691,-64.8775,699915416.4447,20444648.4806,-112854945853.8566
1744022224301,0.0151,3.7468,1.0513,-5.0418,0.1217,-64.7935,685917107.6493,20035755.5236,-112854945860.6675
1744022224405,0.0171,3.7356,1.061,-0.5303,0.1752,-65.0913,672198765.4912,19635040.4304,-112854945867.4667
1744022224510,0.0125,3.7429,1.0591,2.8361,-0.0081,-65.0531,658754790.5216,19242339.6218,-112854945874.2513
1744022224614,0.0212,3.7344,1.0518,-0.8204,0.2286,-64.9997,645579694.6792,18857492.8508,-112854945881.0167
1744022224718,0.0134,3.7302,1.0532,-1.767,-0.031,-64.9081,632668100.6561,18480342.9911,-112854945887.7816
1744022224822,0.0134,3.7117,1.0518,-2.08,0.0225,-65.16,620014738.4802,18110736.1341,-112854945894.5813
1744022224927,0.0164,3.7156,1.051,4.4086,0.0683,-64.8928,607614444.2119,17748521.418,-112854945901.3541
1744022225031,0.012,3.7195,1.0466,0.0269,-0.0081,-65.076,595462155.3824,17393550.9897,-112854945908.1465
1744022225135,0.0139,3.7219,1.0374,3.3552,-0.176,-64.8088,583552912.6727,17045679.9522,-112854945914.9091
1744022225240,0.0149,3.7175,1.0376,3.2254,-0.1302,-65.0302,571881854.8038,16704766.3399,-112854945921.7022
1744022225344,0.0198,3.7249,1.0491,3.3399,0.053,-64.9691,560444218.1014,16370671.0171,-112854945928.489
1744022225449,0.0093,3.7214,1.0569,1.5307,0.0072,-64.9157,549235333.9452,16043257.5992,-112854945935.2654
1744022225553,0.0193,3.72,1.0527,3.7521,-0.0004,-64.8241,538250627.7003,15722392.4459,-112854945942.031
1744022225658,0.0237,3.7212,1.0447,2.3933,-0.1378,-64.8852,527485615.4439,15407944.5803,-112854945948.8078
1744022225762,0.0129,3.7161,1.0557,1.9735,-0.0386,-64.9004,516935903.3859,15099785.6854,-112854945955.5772
1744022225866,0.0198,3.719,1.0503,3.5078,0.0912,-64.9081,506597185.7273,14797789.9796,-112854945962.3408
1744022225970,0.0171,3.7209,1.0547,2.3017,0.0912,-65.1065,496465242.298,14501834.1887,-112854945969.1379
1744022226075,0.0161,3.72,1.05,2.6223,-0.0462,-64.9768,486535937.7713,14211797.4999,-112854945975.9185
1744022226179,0.019,3.7207,1.0515,2.317,0.053,-64.847,476805219.3035,13927561.5541,-112854945982.6861
1744022226284,0.021,3.7236,1.0464,3.2865,-0.0081,-64.931,467269115.3063,13649010.3205,-112854945989.4703
1744022226388,0.0139,3.7266,1.0535,1.7292,0.0148,-64.9462,457923733.2279,13376030.1159,-112854945996.2587
1744022226493,0.0073,3.7178,1.05,2.3781,0.0759,-64.8623,448765258.8582,13108509.5237,-112854946003.0483
1744022226597,0.0144,3.7214,1.0481,1.9048,-0.1607,-65.076,439789953.9277,12846339.3169,-112854946009.8443
1744022226702,0.0203,3.7261,1.0525,1.2254,0.1446,-64.8623,430994155.0253,12589412.5438,-112854946016.6144
1744022226806,0.0129,3.7241,1.0474,1.8284,0.2057,-65.0149,422374272.164,12337624.3146,-112854946023.4005
1744022226910,0.0132,3.7188,1.0442,0.8284,-0.0539,-65.0455,413926786.8581,12090871.8234,-112854946030.1875
1744022227015,0.01,3.7117,1.0476,2.0956,0.137,-64.9157,405648251.3865,11849054.4024,-112854946036.9658
1744022227119,0.0188,3.7104,1.0503,2.5002,-0.0157,-64.8623,397535286.6647,11612073.3116,-112854946043.7371
1744022227224,0.019,3.7124,1.054,4.4926,0.0835,-64.847,389584581.4402,11379831.8527,-112854946050.5048
1744022227328,0.0208,3.7153,1.0535,2.3704,-0.1531,-64.7554,381792890.1039,11152235.1983,-112854946057.2726
1744022227433,0.0168,3.7168,1.0505,-0.0265,0.053,-64.9844,374157032.3497,10929190.4992,-112854946064.0937
1744022227537,0.0164,3.71,1.0413,2.3399,-0.2065,-64.9997,366673891.9945,10710606.6677,-112854946070.8692
1744022227641,0.0146,3.7192,1.0391,1.3094,-0.0691,-64.8928,359340414.3426,10496394.5274,-112854946077.6402
1744022227746,0.0166,3.709,1.0505,2.8055,-0.0615,-64.9844,352153606.3925,10286466.6301,-112854946084.4168
1744022227850,0.0159,3.7188,1.0554,2.4086,-0.0004,-64.9081,345110534.5606,10080737.2972,-112854946091.1965
1744022227956,0.0164,3.7161,1.0496,2.2712,0.0377,-64.847,338208324.1529,9879122.5547,-112854946097.9726
1744022228062,0.0115,3.7139,1.0452,2.8895,-0.0539,-64.8317,331444158.0207,9681540.0991,-112854946104.8178
1744022228166,0.0137,3.7173,1.043,3.1109,-0.092,-64.7783,324815275.2352,9487909.288,-112854946111.6599
1744022228271,0.0149,3.7126,1.0422,2.3781,0.1904,-65.076,318318970.0261,9298151.1217,-112854946118.4422
1744022228376,0.0178,3.7175,1.0525,2.401,-0.1149,-64.8623,311952590.9237,9112188.0866,-112854946125.279
1744022228481,0.0144,3.7144,1.0537,2.6376,0.0835,-64.9386,305713539.4255,8929944.3336,-112854946132.0802
1744022228586,0.0156,3.7104,1.0481,2.2865,-0.0691,-65.0455,299599268.9235,8751345.4396,-112854946138.9203
1744022228691,0.0208,3.7119,1.0498,2.4086,-0.092,-64.847,293607283.8428,8576318.5197,-112854946145.7167
1744022228795,0.02,3.7122,1.0513,2.3552,0.0072,-64.9615,287735138.4578,8404792.1485,-112854946152.522
1744022228900,0.0193,3.7161,1.0474,2.3552,0.1217,-65.0455,281980435.9817,8236696.3168,-112854946159.3296
1744022229004,0.0183,3.709,1.0496,2.4315,0.1217,-65.0149,276340827.5608,8071962.4019,-112854946166.1081
1744022229108,0.0144,3.719,1.0469,2.8437,0.0759,-64.931,270814011.3524,7910523.1618,-112854946172.8874
1744022229213,0.0159,3.709,1.0381,2.3704,0.0225,-64.8546,265397731.4212,7752312.7006,-112854946179.6496
1744022229317,0.0149,3.7151,1.0457,2.2635,-0.0539,-65.0149,260089777.0761,7597266.4411,-112854946186.4312
1744022229421,0.0188,3.7141,1.0505,2.4926,0.0072,-64.9386,254887981.8402,7445321.1119,-112854946193.2155
1744022229526,0.0129,3.7146,1.043,2.3399,-0.0615,-65.0226,249790222.4954,7296414.684,-112854946200.0047
1744022229630,0.0088,3.7173,1.052,1.9048,0.0683,-64.9081,244794418.2907,7150486.3991,-112854946206.7808
1744022229735,0.0181,3.7061,1.0461,1.7903,0.1294,-65.076,239898530.159,7007476.6834,-112854946213.5722
1744022229839,0.0093,3.7075,1.0554,2.0345,0.1217,-64.7172,235100559.8126,6867327.1639,-112854946220.3314
1744022229943,0.0171,3.7095,1.0559,2.5002,0.0148,-64.7248,230398548.9206,6729980.6215,-112854946227.0877
1744022230048,0.0073,3.7178,1.0508,1.5002,0.1675,-65.0302,225790578.1464,6595381.0285,-112854946233.8768
1744022230152,0.0088,3.7021,1.0459,2.1948,-0.0462,-64.8165,221274766.8588,6463473.4051,-112854946240.6434
1744022230257,0.0115,3.7043,1.0437,2.1185,-0.0386,-64.8852,216849271.7899,6334203.9341,-112854946247.4128
1744022230361,0.0217,3.7095,1.0513,2.5231,-0.2218,-64.4577,212512286.6621,6207519.8307,-112854946254.1436
1744022230465,0.0159,3.7141,1.0537,2.63,-0.0691,-64.4882,208262041.2476,6083369.4267,-112854946260.8806
1744022230570,0.0183,3.7097,1.0413,2.1261,0.0988,-64.9691,204096800.6929,5961702.0473,-112854946267.6606
1744022230674,0.0208,3.7087,1.0532,1.7826,-0.0157,-64.9081,200014864.9105,5842468.003,-112854946274.4338
1744022230779,0.0168,3.7083,1.0442,1.7903,-0.1073,-64.9768,196014567.8471,5725618.6314,-112854946281.2141
1744022230883,0.0127,3.7065,1.0508,2.317,0.1141,-64.8546,192094276.7769,5611106.2712,-112854946287.9811
1744022230987,0.0164,3.7061,1.0447,1.4926,-0.1226,-64.8241,188252391.4455,5498884.1328,-112854946294.7483
1744022231092,0.0156,3.7141,1.04,2.3704,0.1523,-64.9539,184487343.9124,5388906.4655,-112854946301.5257
1744022231196,0.0125,3.7051,1.0498,2.3399,0.0377,-64.8928,180797597.3237,5281128.3408,-112854946308.3046
1744022231301,0.0137,3.7043,1.0425,2.6758,-0.1149,-64.9004,177181645.7045,5175505.7626,-112854946315.1199
1744022231406,0.0156,3.7043,1.042,2.4239,0.137,-64.9462,173638013.0906,5071995.6611,-112854946321.9029
1744022231510,0.0161,3.7061,1.0452,1.9887,0.053,-64.8699,170165253.0835,4970555.753,-112854946328.6743
1744022231614,0.0134,3.7092,1.042,1.7445,0.1523,-65.0226,166761948.2528,4871144.654,-112854946335.46
1744022231719,0.0181,3.7075,1.0454,1.9506,0.2362,-65.0302,163426709.5386,4773721.7841,-112854946342.249
1744022231823,0.0212,3.7056,1.0349,2.3933,-0.1226,-64.9386,160158175.6468,4678247.334,-112854946349.0247
1744022231927,0.0286,3.6992,1.0515,3.5765,-0.2142,-65.1294,156955012.5484,4584682.3614,-112854946355.8193
1744022232032,0.0132,3.718,1.0542,3.546,0.0912,-64.8623,153815912.7097,4492988.724,-112854946362.587
1744022232136,0.0146,3.7029,1.0471,1.8513,-0.1073,-64.9004,150739594.6956,4403128.9387,-112854946369.3661
1744022232240,0.0122,3.7065,1.0486,1.6223,0.0377,-64.8852,147724803.0178,4315066.3646,-112854946376.1321
1744022232345,0.021,3.7031,1.0459,2.6605,-0.176,-64.992,144770307.2801,4228765.0175,-112854946382.9072
1744022232449,0.0142,3.71,1.063,2.0574,0.0759,-64.9539,141874901.3916,4144189.7252,-112854946389.688
1744022232554,0.0081,3.7004,1.0544,3.004,0.1141,-65.0149,139037403.7195,4061305.9444,-112854946396.4796
1744022232658,0.0186,3.7031,1.0417,1.7445,0.2133,-65.0226,136256655.8756,3980079.8463,-112854946403.2667
1744022232762,0.0134,3.7029,1.0454,1.8208,0.1752,-64.8699,133531522.9953,3900478.2677,-112854946410.0369
1744022232867,0.0183,3.7,1.041,2.3933,0.1217,-64.9539,130860892.8323,3822468.7138,-112854946416.8182
1744022232971,0.0151,3.7031,1.0457,2.6987,0.053,-64.8852,128243675.3027,3746019.3449,-112854946423.5932
1744022233075,0.0146,3.7031,1.0415,3.3704,-0.0615,-65.0989,125678802.1937,3671098.9518,-112854946430.3905
1744022233180,0.0132,3.7087,1.0425,2.1643,0.1065,-64.7935,123165226.4237,3597676.9842,-112854946437.1583
1744022233285,0.0215,3.7102,1.0454,-0.7135,-0.0081,-65.1065,120701921.8737,3525723.4417,-112854946443.9586
1744022233390,0.0029,3.6873,1.0371,1.3094,-0.0004,-65.0226,118287883.6232,3455208.9764,-112854946450.7909
1744022233495,0.0229,3.6992,1.0425,2.1185,-0.0386,-64.8623,115922126.2199,3386104.7906,-112854946457.5898
1744022233600,0.0173,3.6912,1.0486,4.2025,-0.0386,-65.0378,113603684.1782,3318382.69,-112854946464.4361
1744022233704,0.0142,3.6975,1.0454,2.92,0.0072,-64.9157,111331610.8449,3252015.0372,-112854946471.2359
1744022233809,0.0137,3.7065,1.0378,1.5918,0.3355,-64.7859,109104978.8442,3186974.7711,-112854946477.9935
1744022233913,0.0225,3.6987,1.0471,3.1719,-0.0233,-64.9615,106922879.6414,3123235.2711,-112854946484.7637
1744022234017,0.0139,3.6978,1.0464,3.0956,0.0912,-64.9157,104784422.4156,3060770.5753,-112854946491.5408
1744022234122,0.0107,3.7053,1.0479,1.8895,0.0835,-65.0226,102688734.2112,2999555.1736,-112854946498.3328
1744022234226,0.0151,3.6987,1.0464,2.149,0.053,-64.992,100634959.7972,2939564.0755,-112854946505.117
1744022234330,0.0066,3.7031,1.0444,1.7368,0.0683,-65.0531,98622260.8301,2880772.8035,-112854946511.9007
1744022234435,0.0183,3.7075,1.0439,2.8437,-0.0691,-64.9462,96649815.9558,2823157.3393,-112854946518.672
1744022234539,0.0132,3.6982,1.0381,2.7368,0.1217,-65.0149,94716819.9695,2766694.2055,-112854946525.4594
1744022234643,0.0161,3.6982,1.0596,2.8742,0.0148,-64.8775,92822483.9107,2711360.3226,-112854946532.2317
1744022234748,0.0173,3.7012,1.0378,2.546,-0.0233,-64.9004,90966034.5459,2657133.113,-112854946539.0049
1744022234853,0.0156,3.7007,1.0459,2.3475,0.0759,-65.0607,89146714.1462,2603990.4584,-112854946545.8089
1744022234957,0.0171,3.7026,1.0459,1.4849,-0.0004,-64.8623,87363780.0665,2551910.6485,-112854946552.6024
1744022235062,0.0178,3.6919,1.0466,2.6452,-0.0462,-64.8394,85616504.7863,2500872.4299,-112854946559.3887
1744022235167,0.0164,3.6995,1.0466,4.1948,0.0454,-64.9386,83904175.1713,2450854.9856,-112854946566.1875
1744022235271,0.0139,3.7004,1.0483,1.8132,-0.0691,-65.0149,82226091.9038,2401837.8791,-112854946572.9919
1744022235375,0.0151,3.7048,1.043,3.2559,0.1599,-64.9844,80581570.4507,2353801.1378,-112854946579.7764
1744022235480,0.0142,3.7017,1.0479,1.92,0.0454,-64.9615,78969939.288,2306725.1199,-112854946586.5473
1744022235584,0.0117,3.6975,1.0466,3.8819,0.053,-65.0302,77390540.9499,2260590.6239,-112854946593.3405
1744022235688,0.0166,3.7061,1.0525,2.1032,0.2362,-64.7554,75842730.3952,2215378.8351,-112854946600.0975
1744022235793,0.0151,3.7026,1.0508,2.0422,0.1446,-64.9386,74325876.0455,2171071.2731,-112854946606.8733
1744022235897,0.0186,3.6985,1.0579,3.7216,0.053,-64.8699,72839358.9529,2127649.852,-112854946613.6528
1744022236002,0.0156,3.7004,1.0408,1.0193,0.053,-64.9691,71382571.9302,2085096.8602,-112854946620.4377
1744022236106,0.0122,3.7083,1.0503,4.775,0.137,-64.8852,69954921.0307,2043394.9378,-112854946627.2176
1744022236211,0.0181,3.699,1.0332,-0.0647,-0.0844,-64.8928,68555822.6576,2002527.0295,-112854946633.9946
1744022236315,0.0046,3.7036,1.0498,5.1032,-0.0386,-64.7935,67184706.7765,1962476.488,-112854946640.7599
1744022236420,0.033,3.7175,1.0596,-6.4998,0.5645,433.9469,65841012.0239,1923227.0107,-112854946595.454
1744022236524,0.0107,3.7478,1.0676,-490.6448,-0.1989,-64.4882,64524141.6517,1884762.4515,-112854946602.1841
1744022236628,0.0195,3.696,1.0374,-0.5761,0.0912,-65.2363,63233658.8125,1847067.2104,-112854946608.9881
1744022236733,3.9934,3.6821,1.0342,1.546,-0.0768,-65.0455,61968985.1958,1810124.938,-112854946615.7777
1744022236837,0.0273,3.7048,1.0427,3.4315,0.1675,-64.8165,60729605.8948,1773922.4527,-112854946622.5446
1744022236941,0.0308,3.6948,1.0422,2.2865,-0.1302,-64.9844,59515014.062,1738443.9856,-112854946629.3276
1744022237046,0.0144,3.7014,1.0396,0.2941,0.0377,-64.9004,58324713.8634,1703675.1099,-112854946636.1002
1744022237150,0.0195,3.6877,1.0454,0.1948,0.221,-65.2058,57158219.6558,1669601.629,-112854946642.9063
1744022237255,0.0251,3.7048,1.0466,0.8132,0.1294,-64.8775,56015055.3966,1636209.6066,-112854946649.6798
1744022237359,0.0132,3.697,1.0371,1.1109,-0.0768,-65.0073,54894754.4552,1603485.4071,-112854946656.4646
1744022237463,0.0085,3.6956,1.0327,2.4086,-0.2218,-65.0684,53796859.6665,1571415.6782,-112854946663.2527
1744022237568,0.0132,3.6826,1.0354,-2.7059,-0.1455,-65.2287,52720922.2484,1539987.3503,-112854946670.0648
1744022237672,0.0049,3.7,1.0471,-1.8739,0.3355,-65.0302,51666503.662,1509187.6406,-112854946676.8567
1744022237776,0.0122,3.6477,1.021,4.4239,0.1981,-65.0684,50633174.095,1479003.9088,-112854946683.6503
1744022237881,0.0085,3.6941,1.0398,2.859,0.0606,-65.0455,49620510.9572,1449423.8387,-112854946690.4339
1744022237985,0.0181,3.6667,1.0327,-3.1716,-0.0233,434.8553,48628100.4659,1420435.3586,-112854946645.1329
1744022238089,0.01,3.6743,1.0312,-2.4082,-0.1607,434.7866,47655538.2632,1392026.6364,-112854946599.7779
1744022238194,0.0151,3.6758,1.0408,1.859,-0.031,-65.1447,46702427.7384,1364186.1004,-112854946606.583
1744022238298,0.0195,3.6599,1.0369,1.7597,0.4958,434.6416,45768379.4133,1336902.4276,-112854946561.2838
1744022238402,0.0046,3.6663,1.0271,2.0651,0.053,-64.847,44853012.0897,1310164.3876,-112854946568.0552
1744022238507,0.0151,3.6626,1.0308,0.8819,0.2057,-65.0149,43955951.9899,1283961.1207,-112854946574.8289
1744022238611,0.0181,3.6731,1.0371,2.3323,0.0225,-64.8317,43076833.2397,1258281.8996,-112854946581.5974
1744022238715,0.0039,3.665,1.0374,4.149,0.282,-65.1523,42215297.0495,1233116.2938,-112854946588.397
1744022238820,0.0217,3.6711,1.0259,2.8819,-0.0462,-65.0149,41370991.4572,1208453.9611,-112854946595.1816
1744022238924,0.0164,3.6753,1.0312,2.7445,0.0377,-64.9768,40543571.9618,1184284.8853,-112854946601.967
1744022239028,0.0144,3.6697,1.0359,2.2559,0.1294,-64.9691,39732700.8044,1160599.2009,-112854946608.7495
1744022239133,0.0168,3.6716,1.0437,2.1872,-0.0081,-64.9004,38938047.0612,1137387.2155,-112854946615.5299
1744022239237,0.0117,3.6633,1.0283,2.7445,-0.1302,-64.8623,38159286.4536,1114639.4588,-112854946622.3041
1744022239342,0.0251,3.6663,1.0393,2.0956,-0.1073,-64.9157,37396100.9888,1092346.6555,-112854946629.088
1744022239446,0.0215,3.6682,1.0396,1.8437,-0.1149,-64.8928,36648179.2078,1070499.7086,-112854946635.8718
1744022239551,0.0081,3.6628,1.0339,1.5842,-0.0004,-64.8928,35915215.8366,1049089.7164,-112854946642.6403
1744022239655,0.0073,3.6687,1.0396,2.2865,-0.1073,-64.9233,35196911.8038,1028107.9134,-112854946649.419
1744022239760,0.0212,3.6726,1.0334,1.5002,0.0606,-64.8394,34492973.7731,1007545.7594,-112854946656.1853
1744022239864,0.0081,3.6594,1.0271,1.7979,0.1675,-64.8775,33803114.5343,987394.8633,-112854946662.9588
1744022239968,0.0134,3.6707,1.0325,3.8437,-0.092,-64.9233,33127052.6892,967646.9571,-112854946669.7407
1744022240073,0.0176,3.6604,1.0283,1.63,0.0301,-64.9691,32464511.8548,948294.0202,-112854946676.526
1744022240177,0.0156,3.6638,1.0303,3.2559,-0.092,-64.9157,31815222.0029,929328.1301,-112854946683.3016
1744022240282,0.0154,3.678,1.0376,4.317,-0.1989,-64.9386,31178918.0555,910741.547,-112854946690.0779
1744022240386,0.0208,3.6843,1.0339,-493.1258,0.1599,-64.7096,30555289.2935,892526.7307,-112854946696.8337
1744022240490,0.0208,3.6804,1.0391,2.0956,0.0301,-64.8775,29944183.7729,874676.1974,-112854946703.605
1744022240595,0.0164,3.6724,1.0242,5.2101,-0.0844,-64.8699,29345300.6849,857182.6643,-112854946710.3741
1744022240699,0.0166,3.6943,1.0439,5.8284,-0.1226,-64.931,28758395.318,840038.998,-112854946717.1506
1744022240803,0.0166,3.6917,1.0437,-1.0723,0.0835,-65.0913,28183227.3526,823238.2261,-112854946723.9443
1744022240908,0.0129,3.6877,1.0383,2.5918,0.1217,-65.0073,27619563.1227,806773.4746,-112854946730.7367
1744022241012,0.012,3.6907,1.0398,3.6605,-0.0462,-64.7325,27067172.2866,790638.0013,-112854946737.4984
1744022241117,0.001,3.688,1.0474,2.4391,0.0988,-64.8394,26525829.1396,774825.2555,-112854946744.2657
1744022241221,0.0293,3.6802,1.0342,2.2712,-0.0844,-64.9386,25995312.8413,759328.7374,-112854946751.0388
1744022241325,0.0149,3.6858,1.0334,1.4468,0.0912,-64.8775,25475406.7851,744142.172,-112854946757.792
1744022241429,0.021,3.6865,1.0388,3.3552,-0.0691,-64.8928,24965899.0437,729259.3197,-112854946764.5573
1744022241534,0.0186,3.688,1.0403,2.9887,-0.1684,-65.0531,24466581.4197,714674.115,-112854946771.3452
1744022241638,0.0122,3.6873,1.0466,2.6223,0.0454,-65.0989,23977250.1088,700380.6381,-112854946778.1354
1744022241742,0.0137,3.6882,1.041,3.8132,-0.0462,-64.847,23497705.5476,686373.021,-112854946784.9026
1744022241847,0.0149,3.6851,1.0369,2.6987,0.1065,-64.7783,23027751.7648,672645.5714,-112854946791.6652
1744022241951,0.0251,3.6912,1.0513,2.2483,-0.1073,-64.9004,22567197.0078,659192.646,-112854946798.4397
1744022242056,0.0142,3.6821,1.0415,2.9658,0.1141,-64.9615,22115853.4215,646008.8049,-112854946805.2207
1744022242160,0.0129,3.6824,1.0388,2.1032,0.1065,-65.0836,21673536.6196,633088.6403,-112854946812.0191
1744022242264,0.0178,3.6843,1.0366,3.7826,0.0377,-64.9157,21240066.3263,620426.8705,-112854946818.7977
1744022242369,0.0134,3.6907,1.0388,2.149,0.0148,-65.0149,20815265.2716,608018.335,-112854946825.5864
1744022242473,0.019,3.6943,1.0361,3.5078,-0.0081,-65.0989,20398960.3779,595857.9663,-112854946832.3814
1744022242578,0.0161,3.6943,1.0417,3.2559,-0.1607,-64.8241,19990981.5549,583940.7902,-112854946839.1494
1744022242682,0.0176,3.6956,1.0435,3.92,0.0072,-64.9462,19591162.3758,572261.9743,-112854946845.931
1744022242786,0.0144,3.7043,1.0391,2.0956,-0.092,-65.0607,19199339.3956,560816.7256,-112854946852.7222
1744022242891,0.0178,3.7124,1.0459,-489.2555,-0.1531,-64.931,18815302.6253,549600.3746,-112854946859.4979
1744022242995,0.021,3.7214,1.0496,-488.8357,-0.2981,-64.8852,18438946.6274,538608.3348,-112854946866.2696
1744022243100,0.0208,3.7146,1.0464,-477.7899,-0.0691,-64.9844,18070118.8667,527836.1593,-112854946873.0535
1744022243204,0.0144,3.7959,1.0754,-474.5685,0.4652,-64.6332,17708667.9519,517279.484,-112854946879.8058
1744022243308,0.0134,3.8127,1.0674,-488.9731,0.1828,-64.7325,17354444.5749,506933.9137,-112854946886.5698
1744022243413,0.0139,3.8306,1.0735,-485.1639,-0.0997,-64.8317,17007306.0983,496795.2256,-112854946893.3383
1744022243517,0.0149,3.8601,1.0776,-481.8968,0.3736,434.9316,16667110.7517,486859.3595,-112854946847.9543
1744022243622,0.0203,3.8857,1.0796,-481.5761,0.2897,-65.1142,16333719.3314,477122.2007,-112854946854.7508
1744022243726,0.0195,3.8945,1.0852,-487.0189,0.2973,-64.8317,16006995.1725,467579.786,-112854946861.5191
1744022243830,0.0137,3.9375,1.0793,-472.8968,0.1446,-64.3203,15686806.9615,458228.2057,-112854946868.232
1744022243935,0.01,0.0837,1.084,-471.7517,-0.092,-64.6103,15373021.2431,449063.626,-112854946874.9728
1744022244039,0.011,0.0225,1.0906,5.5918,-0.1226,-64.8317,15065559.98,440082.3339,-112854946881.7379
1744022244143,0.0061,0.0598,1.0864,-34.6372,0.0683,434.9087,14764243.8652,431280.6922,-112854946836.3234
1744022244248,0.0127,3.9075,1.0762,-5.4311,0.1446,435.0003,14468958.4908,422655.094,-112854946790.9255
1744022244352,0.022,3.9211,1.0818,-468.8586,0.0454,-65.0378,14179531.4558,414201.9951,-112854946797.7088
1744022244457,0.0159,3.8701,1.0964,-463.225,-0.1226,-65.1447,13895893.503,405917.9426,-112854946804.5071
1744022244561,0.02,0.0005,1.084,4.7521,0.0606,433.5118,13617974.6857,397799.5732,-112854946759.276
1744022244665,0.0125,0.0864,1.0735,1.4162,-0.1073,-64.7019,13345613.9951,389843.562,-112854946766.0244
1744022244770,0.0093,0.0515,1.0835,-17.1029,-0.0081,434.7026,13078698.586,382046.6846,-112854946720.6373
1744022244874,0.0159,0.0039,1.0901,-5.1029,0.1446,-65.2439,12817122.663,374405.7534,-112854946727.4444
1744022244978,0.0137,0.0032,1.082,0.8971,-0.0004,-64.9997,12560778.8712,366917.6283,-112854946734.2271
1744022245083,0.0159,3.9844,1.0916,6.1414,0.2057,-64.9157,12309563.9819,359579.2968,-112854946741.0032
1744022245187,0.012,0.0144,1.0913,-485.454,0.1675,-64.9233,12063321.6054,352387.7199,-112854946747.7826
1744022245291,0.0168,0.0422,1.0825,-488.767,-0.1531,-64.8241,11822003.7578,345339.9365,-112854946754.5529
1744022245396,0.0129,0.0737,1.0845,-487.2708,0.0377,-64.7325,11585512.4538,338433.1324,-112854946761.3136
1744022245500,0.0093,0.0745,1.0835,5.8895,0.0072,-64.8012,11353801.4517,331664.4652,-112854946768.0733
1744022245605,0.0195,0.0747,1.0808,-7.3395,0.0988,-65.076,11126723.3167,325031.1698,-112854946774.8715
1744022245709,0.0093,0.0415,1.0869,-4.2632,-0.0233,-64.9844,10904187.0243,318530.5387,-112854946781.6554
1744022245813,0.0122,0.0242,1.0857,-491.0494,-0.2829,-64.6561,10686051.6952,312159.8906,-112854946788.3975
1744022245918,0.019,0.0669,1.0801,-485.7823,-0.0386,-64.6714,10472279.6956,305916.6731,-112854946795.1358
1744022246022,0.0144,0.0791,1.0857,1.9658,-0.0615,-65.1981,10262832.9524,299798.3227,-112854946801.9402
1744022246126,0.0137,0.0654,1.0933,1.3246,-0.0615,-64.8623,10057575.0638,293802.3401,-112854946808.7132
1744022246231,0.011,0.071,1.083,-9.538,-0.1073,434.84,9856421.2282,287926.2752,-112854946763.3204
1744022246335,0.0156,0.0444,1.0813,-1.6448,-0.092,-64.7096,9659291.2487,282167.7281,-112854946770.0777
1744022246440,0.012,0.0437,1.0771,2.7139,0.0148,-65.1065,9466104.3141,276524.3668,-112854946776.8728
1744022246544,0.0115,0.0476,1.0901,3.0345,0.1599,-64.8699,9276781.1547,270993.8883,-112854946783.6475
1744022246648,0.0117,0.0435,1.093,2.8132,-0.0462,-65.0226,9091244.4313,265573.998,-112854946790.4364
1744022246753,0.0161,0.0503,1.0759,-491.0342,-0.1149,-64.6867,8909367.9336,260262.4936,-112854946797.1883
1744022246857,0.0142,0.0657,1.0889,-489.7594,-0.1455,-64.7401,8731129.1131,255057.2184,-112854946803.9457
1744022246962,0.0134,0.0901,1.0806,-486.6143,0.1217,-64.7248,8556455.4052,249956.0767,-112854946810.7031
1744022247066,0.0149,0.0979,1.0762,5.8895,-0.0157,-64.763,8385325.5698,244956.9423,-112854946817.462
1744022247170,0.0159,0.0962,1.0791,0.8361,-0.0004,-64.847,8217617.8121,240057.791,-112854946824.2303
1744022247275,0.0107,0.0996,1.0862,-493.2555,0.1446,-64.7783,8053213.671,235256.6432,-112854946830.9918
1744022247379,0.0154,0.1184,1.072,-493.2708,0.0301,-64.7172,7892097.6435,230551.5015,-112854946837.7455
1744022247483,0.0122,0.1167,1.0769,1.233,0.0454,-65.0073,7734254.5068,225940.4677,-112854946844.5319
1744022247588,0.0098,0.1167,1.0786,1.3552,0.2286,-64.7554,7579568.2451,221421.6758,-112854946851.2926
1744022247692,0.0159,0.1113,1.0833,5.9277,0.0606,-64.7935,7427976.1707,216993.2363,-112854946858.0601
1744022247797,0.0159,0.1248,1.0762,5.5842,0.1217,-65.0073,7279415.9168,212653.3717,-112854946864.8429
1744022247901,0.0151,0.124,1.082,2.1567,-0.1302,-64.9615,7133826.5162,208400.2794,-112854946871.6222
1744022248005,0.0112,0.1152,1.0698,2.8819,-0.0691,-64.8241,6991148.9696,204232.2593,-112854946878.3815
1744022248110,0.01,0.1252,1.0771,6.2788,-0.031,-65.0989,6851325.3309,200147.6048,-112854946885.1702
1744022248214,0.0056,0.136,1.0767,5.6834,0.053,-64.9615,6714298.116,196144.6567,-112854946891.9521
1744022248319,0.0144,0.1394,1.0698,3.3933,-0.0844,-64.8088,6580011.2158,192221.7441,-112854946898.7202
1744022248423,0.0154,0.1311,1.0854,1.8971,0.221,-65.0607,6448409.8903,188377.3202,-112854946905.5342
1744022248527,0.0105,0.1401,1.0745,0.9582,-0.0691,-64.8165,6319440.5055,184609.7601,-112854946912.3032
1744022248632,0.0127,0.1335,1.074,1.859,-0.0233,-64.8165,6193050.5936,180917.5535,-112854946919.0688
1744022248737,0.0129,0.136,1.0742,3.5155,0.0683,-64.8088,6069188.6526,177299.2002,-112854946925.8449
1744022248841,0.0122,0.1343,1.0713,3.9506,0.1294,-64.7859,5947803.9941,173753.2209,-112854946932.6273
1744022248946,0.0132,0.1426,1.0801,3.3628,0.0988,-64.8165,5828846.976,170278.1572,-112854946939.4147
1744022249050,0.0137,0.1423,1.0691,2.0803,-0.1149,-64.992,5712268.9672,166872.5723,-112854946946.1954
1744022249155,0.0103,0.1392,1.0771,1.8666,0.0454,-65.0913,5598022.4923,163535.1191,-112854946952.9885
1744022249259,0.0151,0.1309,1.0715,1.7903,0.0072,-65.0073,5486060.9313,160264.4059,-112854946959.7779
1744022249363,0.0146,0.1384,1.0754,1.8208,-0.1684,-64.8623,5376338.6121,157059.0895,-112854946966.553
1744022249468,0.0178,0.1333,1.0691,2.6452,-0.0004,-64.8852,5268810.8191,153917.8931,-112854946973.3315
1744022249572,0.0122,0.135,1.075,2.4315,0.1141,-64.8928,5163433.5612,150839.5385,-112854946980.1097
1744022249677,0.0117,0.1304,1.0708,2.1796,0.0225,-64.7783,5060163.818,147822.742,-112854946986.8688
1744022249781,0.0132,0.1362,1.073,0.5918,-0.0157,-64.992,4958959.3132,144866.2761,-112854946993.6562
1744022249886,0.0134,0.1294,1.0757,2.7063,0.0683,-64.8546,4859779.1074,141968.9478,-112854947000.4276
1744022249990,0.0095,0.1355,1.0745,3.5002,0.1446,-64.9615,4762582.5933,139129.578,-112854947007.2072
1744022250094,0.011,0.1335,1.071,3.0803,-0.176,-65.0607,4667329.965,136346.9612,-112854947013.9979
1744022250199,0.011,0.1392,1.0811,2.1643,0.0683,-64.931,4573982.3001,133620.0219,-112854947020.7743
1744022250303,0.011,0.1338,1.0828,0.0345,0.1294,-64.8623,4482501.3648,130947.6276,-112854947027.5422
1744022250407,0.0081,0.1284,1.0713,1.8437,0.1446,-65.0073,4392850.2292,128328.6857,-112854947034.3273
1744022250512,0.0139,0.125,1.0762,2.2101,-0.0539,-64.9691,4304992.1495,125762.0963,-112854947041.1074
1744022250616,0.012,0.1226,1.0718,4.1109,-0.092,-64.8623,4218891.4239,123246.8367,-112854947047.8794
1744022250722,0.0198,0.1396,1.0789,-493.9655,0.0683,-64.8852,4134461.5809,120781.8906,-112854947054.6789
1744022250826,0.0122,0.1514,1.0742,4.7216,-0.0462,-64.8394,4051771.5629,118366.2395,-112854947061.5008
1744022250931,0.0154,0.1394,1.0671,0.3475,-0.0539,-64.8852,3970734.8824,115998.8973,-112854947068.2949
1744022251036,0.0154,0.1355,1.0696,0.7445,0.0912,-65.0607,3891318.9722,113678.9169,-112854947075.1324
1744022251141,0.0159,0.1333,1.0752,3.63,-0.0004,-64.8241,3813491.6738,111405.3261,-112854947081.9357
1744022251245,0.0105,0.1406,1.0771,2.8742,0.0835,-65.0378,3737220.8493,109177.2215,-112854947088.7211
1744022251350,0.0154,0.1348,1.0718,2.775,0.0988,-64.763,3662475.4259,106993.6754,-112854947095.4842
1744022251454,0.0085,0.1372,1.0715,2.4315,0.0072,-64.9539,3589224.8784,104853.798,-112854947102.2649
1744022251558,0.0142,0.1414,1.0762,3.7216,-0.1149,-64.847,3517439.4774,102756.6998,-112854947109.0311
1744022251663,0.0107,0.1414,1.0667,3.1796,-0.0386,-65.0531,3447089.7302,100701.5549,-112854947115.8173
1744022251767,0.0117,0.1392,1.0779,2.1643,-0.0004,-64.9539,3378146.8704,98687.5158,-112854947122.5933
1744022251871,0.0159,0.1365,1.0803,2.233,0.1828,-64.8699,3310582.8716,96713.7719,-112854947129.3609
1744022251976,0.0098,0.1375,1.0759,1.5842,-0.0004,-64.847,3244370.0882,94779.4906,-112854947136.1338
1744022252080,0.0093,0.137,1.0735,2.4544,0.0606,-64.8317,3179481.6494,92883.9016,-112854947142.9034
1744022252185,0.0122,0.1401,1.0688,3.0116,0.1065,-64.9768,3115891.0407,91026.226,-112854947149.6964
1744022252289,0.0171,0.1458,1.0715,2.7979,-0.0615,-64.8852,3053572.2272,89205.6815,-112854947156.4662
1744022252394,0.0107,0.1462,1.0813,2.7597,-0.1073,-64.9844,2992499.7854,87421.5501,-112854947163.2522
1744022252498,0.0081,0.1409,1.0762,2.9964,0.3202,-64.9691,2932648.8113,85673.1477,-112854947170.024
1744022252602,0.011,0.1404,1.074,3.2483,0.0454,-65.0073,2873994.8821,83959.6822,-112854947176.7988
1744022252706,0.0068,0.1436,1.0762,2.4773,-0.0615,-64.9081,2816513.9558,82280.4795,-112854947183.5649
1744022252810,0.0168,0.1396,1.0754,-492.7059,-0.1989,-64.8852,2760132.0839,80634.8363,-112854947190.3252
1744022252915,0.012,0.1577,1.0679,-492.4464,-0.0997,-64.8394,2704877.7831,79022.1211,-112854947197.0958
1744022253019,0.0054,0.1646,1.0754,-492.5609,0.0835,-64.7706,2650728.6568,77441.686,-112854947203.8466
1744022253123,0.0154,0.1765,1.0767,-489.8586,-0.2371,-64.6714,2597662.805,75892.8164,-112854947210.5865
1744022253227,0.01,0.1855,1.0706,-490.3395,0.0301,-64.8623,2545658.2898,74374.957,-112854947217.3385
1744022253332,0.0054,0.1934,1.0598,-483.6525,0.0072,-64.7554,2494694.4277,72887.4574,-112854947224.097
1744022253436,0.0171,0.2507,1.0479,-483.4464,0.221,-64.8623,2444749.8134,71429.7172,-112854947230.8822
1744022253540,0.0183,0.2834,1.0457,-9.9731,-0.1531,434.1683,2395852.6687,70001.0923,-112854947185.6559
1744022253645,0.0139,0.2205,1.051,-3.1792,0.0072,-64.8546,2347934.0934,68601.0608,-112854947192.4254
1744022253749,0.0095,0.2329,1.054,-0.996,0.0683,-64.9157,2300974.1252,67229.0409,-112854947199.2011
1744022253854,0.0093,0.2112,1.0591,-2.2937,0.1217,-65.0607,2254953.1999,65884.4671,-112854947205.993
1744022253958,0.0125,0.2085,1.0603,-7.1258,0.0301,-65.16,2209852.1956,64566.7721,-112854947212.7962
1744022254062,0.0122,0.1919,1.0693,-10.683,0.1752,-65.0378,2165652.8291,63275.4462,-112854947219.5822
1744022254167,0.0129,0.1589,1.0642,-14.3395,0.221,434.9851,2122337.0437,62009.9505,-112854947174.2337
1744022254271,0.0049,0.1172,1.082,-14.4845,0.0225,-65.2134,2079887.5156,60769.7531,-112854947181.0201
1744022254375,0.0149,0.1011,1.0852,-493.1258,-0.0233,-64.8699,2038238.0048,59554.3444,-112854947187.7899
1744022254479,0.01,0.1375,1.0857,-485.7899,0.0454,-64.8546,1997422.2366,58363.2562,-112854947194.563
1744022254584,0.0142,0.156,1.0735,-3.7288,-0.1226,-64.9768,1957472.1421,57195.968,-112854947201.3463
1744022254688,0.0127,0.1101,1.0769,-14.0952,-0.1302,434.9011,1918319.9393,56052.0263,-112854947155.9131
1744022254793,0.0085,0.0852,1.0818,-2.3242,0.137,-65.0149,1879951.9592,54930.9952,-112854947162.6983
1744022254897,0.0146,0.0691,1.0706,-7.3929,0.0148,-64.8928,1842350.8038,53832.3657,-112854947169.4731
1744022255002,0.0193,0.0845,1.0852,-16.0189,0.1675,-64.9997,1805500.8035,52755.7197,-112854947176.2617
1744022255106,0.021,0.105,1.0908,-9.0189,-0.0462,434.8782,1769388.5412,51700.583,-112854947130.872
1744022255210,0.021,0.0083,1.0842,-484.683,-0.1073,-64.7401,1733949.798,50666.5427,-112854947137.6252
1744022255315,0.0161,0.0627,1.0876,-464.8281,-0.176,-64.3432,1699221.8986,49653.1813,-112854947144.3396
1744022255419,0.0117,0.1526,1.0698,-469.1945,-0.0157,-64.5874,1665188.2002,48660.1081,-112854947151.0804
1744022255523,0.0117,0.1943,1.0703,-486.8586,0.0606,-64.8623,1631833.3981,47686.9043,-112854947157.8518
1744022255628,0.0186,0.1882,1.0667,1.3246,0.0606,-64.992,1599195.6322,46733.1572,-112854947164.6406
1744022255732,0.0076,0.1741,1.0693,-11.6601,-0.1378,-65.1752,1567209.2768,45798.4764,-112854947171.4504
1744022255837,0.01,0.1399,1.0713,-20.4235,0.0606,434.9622,1535861.718,44882.5069,-112854947126.0651
1744022255941,0.0134,0.0881,1.0845,-7.2784,-0.0462,-65.0836,1505142.3987,43984.8424,-112854947132.8555
1744022256045,0.0071,0.0808,1.0886,-0.2479,-0.0615,-64.9386,1475038.1766,43105.1363,-112854947139.6359
1744022256150,0.0095,0.0776,1.0813,-2.6601,-0.2218,-65.2439,1445535.7892,42243.0052,-112854947146.4518
1744022256254,0.0149,0.0696,1.0842,-8.1181,-0.0081,-65.1829,1416622.8823,41398.133,-112854947153.2593
1744022256359,0.0156,0.053,1.0852,2.1567,0.1294,-64.6867,1388289.2674,40570.1716,-112854947160.0072
1744022256463,0.0093,0.054,1.0811,-487.0189,-0.0157,-64.7783,1360472.4168,39758.7612,-112854947166.7512
1744022256567,0.0098,0.0903,1.084,-490.2555,-0.1607,-64.679,1333211.5584,38963.5637,-112854947173.4919
1744022256671,0.0142,0.0942,1.0854,0.9353,-0.1073,-65.0073,1306546.0885,38184.271,-112854947180.2758
1744022256776,0.0103,0.0869,1.0854,6.2941,-0.0081,-64.8012,1280414.4683,37420.5784,-112854947187.0381
1744022256880,0.0105,0.0964,1.0745,-492.7746,-0.092,-64.8088,1254754.4265,36672.1507,-112854947193.8047
1744022256984,0.0151,0.1123,1.0767,2.2941,-0.1302,-64.9386,1229658.2582,35938.6828,-112854947200.5863
1744022257089,0.0125,0.1096,1.072,-0.851,-0.0233,-64.7783,1205063.6891,35219.898,-112854947207.3456
1744022257193,0.0146,0.0952,1.0803,-492.7059,0.1904,-64.9386,1180910.6869,34515.5085,-112854947214.1233
1744022257298,0.0159,0.1208,1.0762,1.0727,0.0988,-64.8852,1157291.2773,33825.1961,-112854947220.8943
1744022257402,0.0081,0.0891,1.0837,2.0956,-0.092,-65.0149,1134144.3266,33148.6787,-112854947227.6843
1744022257507,0.0039,0.1155,1.0823,-487.8281,-0.0004,-64.8546,1111410.3042,32485.7055,-112854947234.4433
1744022257612,0.0068,0.1482,1.0706,0.6987,0.1065,-65.076,1089180.8941,31835.9995,-112854947241.2861
1744022257717,0.0183,0.0879,1.0806,-18.8281,-0.0386,-64.9004,1067393.9924,31199.2606,-112854947248.1206
1744022257822,0.0076,0.0679,1.082,3.6529,0.1599,-64.679,1046045.1254,30575.2883,-112854947254.8899
1744022257927,0.0178,0.0935,1.0757,-489.1868,0.0759,-64.8623,1025072.3735,29963.7759,-112854947261.7245
1744022258033,0.0127,0.0884,1.0781,-2.4464,0.1065,-64.8852,1004569.3336,29364.5024,-112854947268.5571
1744022258138,0.011,0.0767,1.0886,-0.9655,0.0912,-64.992,984476.494,28777.2147,-112854947275.4135
1744022258243,0.0166,0.084,1.0884,4.9353,0.0225,-64.763,964786.127,28201.6597,-112854947282.2201
1744022258348,0.011,0.0796,1.0808,-6.9884,-0.031,-65.16,945488.3349,27637.6162,-112854947289.0724
1744022258452,0.012,0.0742,1.0798,-4.8128,-0.2065,-65.0073,926576.7201,27084.8345,-112854947295.8682
1744022258557,0.0151,0.0605,1.0808,5.9048,-0.0081,-64.8928,908044.4201,26543.1254,-112854947302.6414
1744022258661,0.0085,0.0767,1.0859,-480.6677,0.2362,-64.9233,889833.0084,26012.2825,-112854947309.4184
1744022258766,0.0144,0.1125,1.0774,5.4544,-0.092,-64.9233,872035.592,25492.0167,-112854947316.1976
1744022258870,0.0178,0.0837,1.0781,-9.0342,-0.0386,-64.7096,854592.6111,24982.158,-112854947322.9525
1744022258974,0.0183,0.0684,1.0808,-1.9731,-0.0386,-64.847,837499.1961,24482.4959,-112854947329.7102
1744022259078,0.0242,0.0613,1.084,1.4315,0.1828,-64.6409,820747.9896,23992.8437,-112854947336.4567
1744022259183,0.0061,0.0754,1.085,-0.6601,0.053,-65.0226,804331.6082,23512.9902,-112854947343.2431
1744022259287,0.0081,0.064,1.0862,-1.0189,-0.0844,-65.1676,788243.5056,23042.7178,-112854947350.0453
1744022259391,0.0095,0.0515,1.082,5.0345,0.0912,-65.1371,772477.7708,22581.8671,-112854947356.8382
1744022259496,0.02,0.0737,1.0828,-490.683,0.0835,-64.6943,756976.7438,22130.2216,-112854947363.5805
1744022259600,0.0105,0.095,1.0837,2.1796,-0.1607,-64.7019,741836.0984,21687.5941,-112854947370.3353
1744022259704,0.0117,0.0698,1.0793,1.5918,-0.1378,-65.0226,726998.1795,21253.8202,-112854947377.114
1744022259809,0.0115,0.0789,1.0757,-5.4769,-0.0081,-65.0455,712456.3058,20828.7352,-112854947383.9039
1744022259913,0.0137,0.0605,1.0864,-3.1639,0.1523,-64.9233,698205.4861,20412.1662,-112854947390.6822
1744022260018,0.0115,0.0669,1.0818,-3.1868,-0.031,-65.0607,684239.6874,20003.912,-112854947397.4749
1744022260122,0.0142,0.04,1.0945,5.6834,0.1294,-64.8546,670554.0833,19603.8366,-112854947404.2455
1744022260226,0.0132,0.0491,1.0879,-492.4235,0.0835,-64.9081,657091.2636,19211.759,-112854947411.0186
1744022260331,0.0115,0.0696,1.0808,-487.6143,-0.0462,-64.6409,643897.9341,18827.5114,-112854947417.8017
1744022260436,0.0034,0.053,1.0911,-481.6677,0.0988,-64.9997,630969.2996,18450.9722,-112854947424.59
1744022260540,0.0056,0.1035,1.0825,-493.1181,-0.0462,-64.9157,618298.1174,18081.9465,-112854947431.3699
1744022260645,0.0122,0.1069,1.0708,-3.3471,0.0454,-65.0455,605930.493,17720.3037,-112854947438.1613
1744022260749,0.0144,0.0742,1.0774,-16.851,-0.2294,-64.9462,593808.8047,17365.8633,-112854947444.9397
1744022260853,0.0193,0.0649,1.0833,-9.6219,0.2744,435.008,581930.2794,17018.5582,-112854947399.5363
1744022260958,0.0105,0.0286,1.0813,1.8895,-0.1149,-65.0073,570290.4638,16678.1686,-112854947406.3247
1744022261062,0.0098,0.043,1.092,-488.683,-0.031,-64.5798,558833.2843,16344.5963,-112854947413.0646
1744022261166,0.0156,0.1072,1.0825,-466.599,0.4805,-64.6943,547607.586,16017.7415,-112854947419.8149
1744022261271,0.0066,0.1138,1.0757,-488.4387,0.1599,-64.7706,536604.1648,15697.4005,-112854947426.5747
1744022261375,0.0186,0.1172,1.0828,-13.9197,-0.2981,434.611,525869.3474,15383.4069,-112854947381.2075
1744022261480,0.0066,0.0652,1.0859,-10.1716,-0.0233,-65.0455,515349.5546,15075.7339,-112854947387.9999
1744022261584,0.0129,0.062,1.0884,-6.3548,-0.1989,-64.931,505040.5446,14774.1897,-112854947394.7818
1744022261689,0.0254,0.053,1.0872,-12.7365,-0.0462,-65.1065,494937.0515,14478.6789,-112854947401.5853
1744022261793,0.0144,0.0007,1.0854,-22.8204,0.0377,434.924,485034.5427,14189.0984,-112854947356.1776
1744022261897,0.0186,3.9387,1.0911,-6.9578,0.1599,-64.9997,475333.1966,13905.3321,-112854947362.9635
1744022262002,0.0122,3.9678,1.0867,-489.6143,-0.0004,-64.8241,465776.5108,13627.2265,-112854947369.7296
1744022262106,0.0127,3.988,1.0886,4.3552,-0.031,-64.8165,456461.487,13354.6797,-112854947376.4946
1744022262210,0.0159,3.9744,1.092,2.0727,0.3813,-64.8317,447332.5283,13087.6251,-112854947383.2602
1744022262315,0.011,3.9785,1.0835,3.2177,-0.0615,-64.9157,438386.2687,12825.8677,-112854947390.0395
1744022262419,0.0151,3.9849,1.1018,3.7292,0.0454,-64.8317,429618.982,12569.3553,-112854947396.808
1744022262524,0.0161,3.9993,1.0881,-479.9044,0.3507,-64.7706,420977.5727,12318.0041,-112854947403.5689
1744022262628,0.0051,0.0134,1.0952,-485.2784,0.137,-64.7096,412506.9351,12071.6571,-112854947410.3268
1744022262732,0.009,0.0571,1.0835,-472.7288,0.1675,-64.5645,404207.0534,11830.236,-112854947417.0679
1744022262837,0.0002,0.1189,1.0798,-461.5532,0.2515,-64.2745,396074.3982,11593.6612,-112854947423.7759
1744022262941,0.0068,0.189,1.062,-476.4235,0.0225,-64.5645,388102.9523,11361.7875,-112854947430.5139
1744022263046,0.0129,0.238,1.0432,1.4162,0.0683,-64.8852,380339.8614,11134.5493,-112854947437.2843
1744022263150,0.0093,0.1931,1.0696,-3.4998,-0.092,-65.0226,372731.4774,10911.8436,-112854947444.0681
1744022263254,0.0198,0.1514,1.0623,-34.8662,-0.634,434.8935,365272.0102,10693.5252,-112854947398.6786
1744022263359,0.0037,0.1985,1.0654,-39.2555,0.4194,432.9316,357961.331,10479.6982,-112854947353.4802
1744022263463,0.0186,0.061,1.104,-36.6601,-0.2065,434.3744,350796.9889,10270.0683,-112854947308.2003
1744022263567,0.0178,3.9436,1.0913,3.2788,0.3507,-64.7325,343781.4418,10064.7023,-112854947314.9622
1744022263672,3.9995,0.0193,1.0891,-486.1105,0.0454,-64.3813,336854.6502,9861.9221,-112854947321.6835
1744022263776,0.0137,3.9695,1.0837,-24.8739,-0.26,-65.2287,330115.0722,9664.6577,-112854947328.4961
1744022263881,0.0186,3.9551,1.0947,-26.0952,-0.2142,-65.2363,323510.1578,9471.3419,-112854947335.3066
1744022263985,0.0107,3.8938,1.0796,-19.5685,-0.1226,434.8095,317038.0071,9281.9039,-112854947289.871
1744022264090,0.0117,3.8557,1.0786,-10.2479,-0.0691,434.9927,310696.2472,9096.2598,-112854947244.2386
1744022264194,0.0186,3.8376,1.0813,-13.2861,-0.3363,-65.1523,304481.0145,8914.2993,-112854947251.0408
1744022264299,0.0146,3.7949,1.0669,-18.7823,-0.7638,-63.8852,298389.5268,8735.9355,-112854947257.7033
1744022264404,0.0137,3.7605,1.0581,-6.7059,-0.0004,-65.1905,292421.0987,8561.2172,-112854947264.5438
1744022264508,0.0176,3.7581,1.0566,-475.2479,0.2744,-64.4958,286524.1855,8390.0202,-112854947271.2661
1744022264612,0.0115,3.8398,1.0842,-456.0723,0.4423,-64.6409,280747.0809,8222.2662,-112854947278.0161
1744022264716,0.019,3.936,1.0854,-476.5761,0.053,-64.6638,275083.468,8057.8254,-112854947284.7628
1744022264821,0.0073,3.9482,1.0898,-478.7594,0.3355,-64.6103,269532.9709,7896.7055,-112854947291.4947
1744022264925,0.0137,3.9744,1.0908,-488.3777,-0.0844,-64.7935,264092.3873,7738.7634,-112854947298.2614
1744022265030,0.0129,3.9753,1.084,2.2941,-0.0004,-64.847,258810.8356,7583.989,-112854947305.0318
1744022265134,0.0164,3.9722,1.0903,-0.2555,-0.0997,-64.931,253634.6521,7432.2989,-112854947311.8026
1744022265238,0.0215,3.9629,1.0911,5.5078,0.0454,-64.992,248562.5799,7283.656,-112854947318.5749
1744022265343,0.0154,3.9802,1.0862,-489.8281,0.0835,-64.6867,243541.2549,7137.9917,-112854947325.3308
1744022265447,0.0178,3.9929,1.0898,-490.851,-0.1913,-64.7248,238620.2139,6995.2118,-112854947332.0957
1744022265553,0.0156,0.0139,1.0894,-489.0723,0.137,-65.1065,233795.6789,6855.3097,-112854947338.9844
1744022265657,0.0112,0.0276,1.092,-489.5151,-0.1836,-64.7019,229068.416,6718.1775,-112854947345.7206
1744022265761,0.0107,0.0415,1.0845,1.9887,-0.1607,-64.9081,224485.8613,6583.7906,-112854947352.4968
1744022265866,0.0217,0.0393,1.085,-8.0876,0.0912,434.9545,219993.9241,6452.1056,-112854947307.0699
1744022265970,0.0171,0.0183,1.0867,-11.9426,-0.0844,-65.1371,215591.4092,6323.0413,-112854947313.8711
1744022266075,0.0112,3.9597,1.0818,-9.1868,-0.0691,-65.1294,211278.7001,6196.5747,-112854947320.6833
1744022266179,0.0154,3.9641,1.083,3.9811,-0.0462,-64.7325,207053.594,6072.6387,-112854947327.4385
1744022266283,0.0095,3.9822,1.0859,5.6452,-0.0004,-64.931,202913.1602,5951.1877,-112854947334.2088
1744022266388,0.0129,3.9834,1.0881,-1.599,0.0683,-65.0226,198854.7944,5832.1718,-112854947340.9849
1744022266492,0.0117,3.9685,1.0867,-1.1258,0.0454,-65.0607,194877.6433,5715.5342,-112854947347.7865
1744022266597,0.0146,3.9675,1.0935,4.1643,0.0988,-64.847,190980.5746,5601.234,-112854947354.5561
1744022266701,0.0088,3.9675,1.0837,3.8666,0.1217,-64.9615,187161.4199,5489.2238,-112854947361.346
1744022266806,0.0142,3.9756,1.0835,2.5765,-0.0462,-64.8088,183418.5166,5379.4351,-112854947368.113
1744022266910,0.0117,3.9709,1.0889,3.691,0.0759,-64.9691,179750.5834,5271.8553,-112854947374.8945
1744022267014,0.0122,3.9824,1.0959,4.9124,0.0835,-64.847,176156.1329,5166.4278,-112854947381.6632
1744022267119,0.0151,3.9812,1.0845,2.1567,-0.1378,-64.9233,172633.2925,5063.0854,-112854947388.4444
1744022267223,0.01,3.9792,1.0898,0.8895,-0.0768,-65.0226,169180.7777,4961.8175,-112854947395.2316
1744022267328,0.0112,3.9773,1.0874,1.1261,-0.0768,-64.9081,165797.3378,4862.5747,-112854947402.0074
1744022267432,0.0151,3.9751,1.0789,1.9964,0.1446,-64.8928,162481.6581,4765.3382,-112854947408.7872
1744022267536,0.0149,3.9741,1.0842,2.4773,0.1599,-64.9615,159232.3396,4670.0481,-112854947415.5707
1744022267641,0.0073,3.9746,1.083,2.5613,0.0912,-64.8088,156048.0162,4576.6589,-112854947422.3348
1744022267745,0.0161,3.9753,1.0837,2.4773,-0.0691,-64.9233,152927.3706,4485.1186,-112854947429.1105
1744022267850,0.0146,3.9761,1.0847,2.3399,-0.0539,-64.9386,149869.1238,4395.4111,-112854947435.8909
1744022267954,0.0146,3.9724,1.0962,2.2865,-0.0386,-65.076,146872.0329,4307.4993,-112854947442.6833
1744022268058,0.0056,3.9722,1.0808,2.4391,-0.1378,-65.0073,143934.9036,4221.3381,-112854947449.4678
1744022268163,0.0239,3.9758,1.0515,2.6147,-0.1226,-64.8852,141056.543,4136.8966,-112854947456.2401
1744022268267,0.0159,3.9797,1.0825,2.4162,0.0912,-64.9081,138235.7213,4054.1681,-112854947463.0143
1744022268371,0.0159,3.9761,1.0908,2.4315,0.2133,-64.847,135471.3149,3973.1066,-112854947469.7802
1744022268476,0.0132,3.9734,1.0908,2.3246,-0.1226,-64.9539,132762.1859,3893.6327,-112854947476.5642
1744022268580,0.01,3.9729,1.0833,2.4468,0.137,-64.8241,130107.2539,3815.7757,-112854947483.3346
1744022268685,0.0203,3.9761,1.0989,2.4239,0.053,-64.9004,127505.4141,3739.4644,-112854947490.1105
1744022268789,0.0146,3.9729,1.0835,2.3933,0.137,-64.9081,124955.6121,3664.6896,-112854947496.8916
1744022268894,0.012,3.9758,1.0945,2.1948,0.053,-64.9081,122456.783,3591.4023,-112854947503.6709
1744022268998,0.0115,3.9707,1.084,2.546,-0.031,-64.9386,120007.9687,3519.5724,-112854947510.4495
1744022269102,0.0159,3.9775,1.0913,2.3323,-0.0691,-64.9081,117608.1075,3449.1739,-112854947517.2285
1744022269207,0.0127,3.9744,1.0862,2.3704,-0.0157,-64.8241,115256.2485,3380.1897,-112854947523.9954
1744022269311,0.0178,3.9766,1.0835,2.3246,-0.0233,-64.9233,112951.4229,3312.5831,-112854947530.7755
1744022269415,0.0085,3.9692,1.0833,2.4162,0.1141,-64.9081,110692.7025,3246.3451,-112854947537.5481
1744022269520,0.0117,3.9746,1.0859,2.3094,-0.0157,-64.9386,108479.1452,3181.4178,-112854947544.3208
1744022269624,0.0129,3.9756,1.0896,2.4162,-0.031,-64.8623,106309.8694,3117.7871,-112854947551.0961
1744022269729,0.0168,3.9678,1.0874,2.546,-0.092,-65.0073,104183.9923,3055.4218,-112854947557.8814
1744022269833,0.0142,3.9756,1.0913,2.4086,-0.0844,-64.8165,102100.6181,2994.3052,-112854947564.6467
1744022269938,0.011,3.9734,1.0938,2.2788,0.1828,-64.763,100058.8975,2934.4392,-112854947571.4112
1744022270042,0.01,3.9663,1.0903,2.2865,-0.1302,-64.9233,98058.0124,2875.7388,-112854947578.1901
1744022270146,0.0132,3.9751,1.0854,1.9735,0.0835,-64.9615,96097.115,2818.2333,-112854947584.9723
1744022270251,0.0105,3.9744,1.0833,2.5231,0.0912,-64.7783,94175.4924,2761.8795,-112854947591.7384
1744022270356,0.0107,3.9753,1.0793,2.3246,-0.0462,-64.9691,92292.2838,2706.6387,-112854947598.549
1744022270460,0.0107,3.9761,1.0869,2.4773,0.0835,-64.7706,90446.7523,2652.5159,-112854947605.3158
1744022270564,0.0159,3.9731,1.085,2.4773,0.1065,-64.9691,88638.1316,2599.4765,-112854947612.0981
1744022270669,0.0129,3.9802,1.0884,2.2101,-0.1302,-64.8241,86865.6554,2547.4745,-112854947618.8625
1744022270773,0.0156,3.9685,1.0891,2.5231,-0.0081,-65.0684,85128.6597,2496.5243,-112854947625.6523
1744022270878,0.01,3.9763,1.0933,2.546,0.0072,-64.9844,83426.4057,2446.5962,-112854947632.4331
1744022270982,0.0129,3.9736,1.0806,2.317,0.0225,-64.8852,81758.1767,2397.6675,-112854947639.2057
1744022271086,0.0132,3.9707,1.0955,2.5002,-0.031,-64.8012,80123.3269,2349.7117,-112854947645.9735
1744022271191,0.0085,3.97,1.0862,2.4544,-0.1226,-64.8546,78521.1718,2302.707,-112854947652.7463
1744022271295,0.0088,3.9707,1.0896,2.3933,-0.0157,-64.9081,76951.0527,2256.6533,-112854947659.5231
1744022271400,0.0059,3.9739,1.0935,2.4086,0.2439,-64.8699,75412.3369,2211.548,-112854947666.2991
1744022271504,0.0103,3.9729,1.082,2.6071,0.0301,-65.1371,73904.4186,2167.3217,-112854947673.1013
1744022271609,0.0125,3.9727,1.0889,2.401,0.0759,-64.847,72426.6358,2123.9841,-112854947679.8777
1744022271713,0.0063,3.9749,1.0842,2.3399,0.0759,-64.8928,70978.4037,2081.5148,-112854947686.6524
1744022271817,0.0139,3.9695,1.0852,2.6071,0.1065,-64.9157,69559.1628,2039.896,-112854947693.4282
1744022271922,0.0117,3.9731,1.0835,2.462,0.1599,-64.9081,68168.2927,1999.1156,-112854947700.2036
1744022272026,0.0078,3.9753,1.084,2.4162,0.1599,-64.9615,66805.2353,1959.152,-112854947706.9855
1744022272131,0.0144,3.9724,1.0928,2.4773,0.053,-64.7935,65469.4427,1919.9748,-112854947713.7499
1744022272235,0.0115,3.9731,1.0789,2.3704,-0.0462,-65.0455,64160.359,1881.5718,-112854947720.5427
1744022272339,0.0139,3.9783,1.083,2.3094,0.0912,-64.9386,62877.4499,1843.9503,-112854947727.326
1744022272444,0.0103,3.9714,1.0894,2.462,0.0759,-64.8317,61620.2125,1807.0807,-112854947734.0986
1744022272548,0.0132,3.9712,1.0825,2.149,0.1217,-64.9004,60388.0897,1770.9523,-112854947740.8806
1744022272653,0.0142,3.969,1.085,2.3399,0.1217,-64.8928,59180.628,1735.5462,-112854947747.6587
1744022272757,0.0164,3.968,1.0923,2.5842,0.0912,-64.9844,57997.3383,1700.8445,-112854947754.4418
1744022272862,0.0146,3.9695,1.0806,2.2635,-0.0768,-64.8699,56837.6848,1666.8202,-112854947761.2115
1744022272966,0.0107,3.9692,1.0842,2.3857,0.0148,-65.0989,55701.2358,1633.4868,-112854947768.0041
1744022273070,0.0117,3.9709,1.082,2.3323,0.0072,-65.0302,54587.511,1600.8189,-112854947774.7901
1744022273175,0.0081,3.9702,1.0806,2.317,-0.0615,-64.8394,53496.0597,1568.7985,-112854947781.5578
1744022273279,0.0166,3.967,1.0837,2.4315,-0.1302,-64.9233,52426.4479,1537.409,-112854947788.3356
1744022273384,0.0146,3.97,1.0884,2.3323,0.0454,-64.9615,51378.2175,1506.6659,-112854947795.1239
1744022273488,0.0146,3.967,1.0833,2.5155,-0.0157,-64.7096,50350.9715,1476.5313,-112854947801.8814
1744022273592,0.0156,3.9722,1.0935,2.3704,-0.0004,-64.9997,49344.2531,1447.0008,-112854947808.6707
1744022273697,0.0122,3.9707,1.0959,2.4849,0.2133,-64.9691,48357.6805,1418.0837,-112854947815.4661
1744022273801,0.0095,3.9688,1.0881,2.4086,0.0148,-64.9462,47390.833,1389.7253,-112854947822.2461
1744022273906,0.0208,3.9612,1.0862,2.5994,0.1065,-64.8317,46443.3435,1361.9404,-112854947829.0541
1744022274011,0.0132,3.9739,1.0793,2.233,-0.1302,-64.8317,45514.7675,1334.6891,-112854947835.8232
1744022274115,0.0117,3.9729,1.0891,2.5002,-0.0997,-64.9081,44604.7879,1307.9863,-112854947842.6073
1744022274220,0.0093,3.9685,1.0886,2.3399,0.1217,-65.0378,43712.9924,1281.8409,-112854947849.4321
1744022274325,0.0151,3.97,1.0842,2.5155,0.0225,-64.9004,42839.0503,1256.2067,-112854947856.1968
1744022274431,0.0146,3.9685,1.0872,2.3246,0.0683,-64.9386,41982.572,1231.09,-112854947863.1181
1744022274535,0.0081,3.9683,1.0835,2.3399,-0.0157,-64.847,41143.2207,1206.4688,-112854947869.8833
1744022274640,0.0154,3.9695,1.0862,2.3552,0.0988,-64.9081,40320.657,1182.3497,-112854947876.6473
1744022274744,0.0159,3.9695,1.0842,2.4391,-0.0004,-64.847,39514.5545,1158.7027,-112854947883.4255
1744022274848,0.0176,3.9673,1.085,2.4926,-0.0844,-64.9233,38724.5787,1135.5196,-112854947890.2008
1744022274953,0.0132,3.9736,1.0859,2.317,0.0835,-64.7935,37950.3841,1112.8185,-112854947896.945
1744022275057,0.0117,3.9739,1.0867,2.5613,-0.0997,-64.8623,37191.6984,1090.5532,-112854947903.7021
1744022275161,0.0164,3.9688,1.0845,2.3475,-0.1378,-64.9691,36448.1654,1068.7279,-112854947910.4895
1744022275265,0.0161,3.9707,1.0901,2.4239,-0.0691,-64.8012,35719.5091,1047.3462,-112854947917.2485
1744022275370,0.0127,3.9646,1.0862,2.2941,-0.1073,-64.8699,35005.4133,1026.3893,-112854947924.0146
1744022275474,0.0144,3.9722,1.084,2.4697,-0.1684,-64.9233,34305.6188,1005.8447,-112854947930.7932
1744022275579,0.0134,3.9702,1.0889,2.3552,-0.0539,-64.8317,33619.8068,985.723,-112854947937.5581
1744022275683,0.0139,3.9692,1.0835,2.2865,0.053,-64.8317,32947.7056,966.0145,-112854947944.3271
1744022275787,0.0122,3.9771,1.0793,2.3246,0.0683,-64.8775,32289.0519,946.7023,-112854947951.0974
1744022275892,0.0117,3.9673,1.0803,2.4162,0.0835,-64.9233,31643.5792,927.778,-112854947957.8618
1744022275996,0.0103,3.9692,1.0898,2.2635,-0.0081,-64.8852,31010.9986,909.2232,-112854947964.6389
1744022276100,0.011,3.9668,1.0884,2.4391,0.0454,-64.9081,30391.0876,891.0448,-112854947971.4145
1744022276205,0.0166,3.9697,1.0867,2.3246,0.0988,-64.9081,29783.5639,873.2338,-112854947978.1924
1744022276309,0.0183,3.9651,1.0903,2.5384,0.282,-64.9081,29188.2111,855.7973,-112854947984.9691
1744022276413,0.0173,3.9634,1.0798,2.3094,0.0072,-65.0455,28604.7445,838.6817,-112854947991.7544
1744022276518,0.02,3.9736,1.0864,2.6223,0.1828,-64.9615,28032.9779,821.9257,-112854947998.5247
1744022276622,0.0159,3.9656,1.0933,2.5002,0.1294,-64.9539,27472.6319,805.5004,-112854948005.2995
1744022276726,0.0093,3.9668,1.0825,2.4544,0.0835,-64.9844,26923.491,789.4008,-112854948012.071
1744022276831,0.0107,3.9736,1.0847,2.5613,0.0683,-64.8699,26385.3441,773.6212,-112854948018.8418
1744022276935,0.0068,3.9736,1.0955,2.5613,-0.0004,-64.8623,25857.9573,758.1513,-112854948025.6111
1744022277039,0.0022,3.9705,1.083,2.4239,0.0072,-64.8775,25341.1068,742.9929,-112854948032.3697
1744022277144,0.0186,3.9668,1.0847,2.6071,0.137,-64.9386,24834.6117,728.1463,-112854948039.146
1744022277248,0.0132,3.9714,1.0884,2.1185,0.053,-64.8775,24338.196,713.5896,-112854948045.9184
1744022277352,0.0132,3.9714,1.0898,2.7368,-0.0081,-64.8012,23851.7716,699.3177,-112854948052.6877
1744022277457,0.0146,3.9695,1.0874,2.2177,-0.0615,-64.931,23375.023,685.3255,-112854948059.4668
1744022277561,0.0127,3.9739,1.0857,2.3704,0.1828,-65.16,22907.8257,671.6386,-112854948066.2673
1744022277666,0.0146,3.9717,1.0891,2.5689,0.1981,-65.0378,22449.9916,658.2265,-112854948073.0555
1744022277770,0.0132,3.9644,1.0854,2.2712,0.0454,-64.9462,22001.284,645.0673,-112854948079.8307
1744022277874,0.0132,3.9614,1.0901,2.4468,-0.0539,-64.9768,21561.5673,632.1613,-112854948086.6144
1744022277978,0.0112,3.9707,1.0901,2.7597,-0.1378,-64.9691,21130.6773,619.5053,-112854948093.3907
1744022278083,0.0122,3.9717,1.0979,2.3704,-0.2294,-64.931,20708.3631,607.0928,-112854948100.1567
1744022278187,0.0139,3.9729,1.0884,2.6529,-0.1073,-64.9844,20294.5272,594.9405,-112854948106.9421
1744022278292,0.0166,3.9683,1.0876,2.462,0.1752,-64.9233,19888.9485,583.0595,-112854948113.7257
1744022278396,0.0105,3.9727,1.0879,2.462,0.221,-64.8699,19491.4818,571.4225,-112854948120.506
1744022278501,0.0154,3.9695,1.0833,2.7139,-0.1149,-64.9157,19101.9908,559.9824,-112854948127.2815
1744022278605,0.0171,3.9705,1.0825,2.3399,0.1065,-64.9004,18720.2515,548.7934,-112854948134.0531
1744022278709,0.0132,3.9685,1.0933,2.5155,0.137,-64.9462,18346.1621,537.8323,-112854948140.8316
1744022278814,0.0098,3.9692,1.0811,2.3628,0.0225,-64.8928,17979.5421,527.0797,-112854948147.6032
1744022278918,0.0129,3.969,1.0889,2.4239,-0.0615,-64.9615,17620.2586,516.5327,-112854948154.3824
1744022279022,0.0188,3.9648,1.0879,2.4391,0.1752,-65.0684,17268.1625,506.2191,-112854948161.1791
1744022279127,0.0117,3.9673,1.0928,2.4315,-0.2294,-65.0836,16923.1065,496.0725,-112854948167.9769
1744022279231,0.0176,3.9719,1.0867,2.5384,-0.0844,-64.8317,16584.9645,486.1419,-112854948174.7493
1744022279336,0.0117,3.9695,1.0916,2.5002,-0.0157,-65.1447,16253.5798,476.4187,-112854948181.55
1744022279440,0.011,3.9646,1.0957,2.4315,0.0683,-64.8241,15928.8145,466.8987,-112854948188.323
1744022279545,0.0144,3.9648,1.0867,2.4239,-0.0615,-64.9462,15610.5461,457.5549,-112854948195.1052
1744022279649,0.0132,3.969,1.0825,2.3552,-0.176,-64.931,15298.6372,448.3866,-112854948201.8796
1744022279753,0.0149,3.9668,1.085,2.5307,0.1217,-64.847,14992.9835,439.4316,-112854948208.6451
1744022279858,0.0134,3.968,1.0901,2.4849,-0.0233,-64.9768,14693.4371,430.6413,-112854948215.4262
1744022279962,0.0137,3.9614,1.092,2.3399,-0.0004,-64.9997,14399.8659,422.029,-112854948222.2124
1744022280066,0.0129,3.968,1.0923,2.3399,0.1065,-64.9004,14112.1664,413.6002,-112854948228.9861
1744022280171,0.0151,3.9648,1.0884,2.5307,-0.1073,-64.9615,13830.2413,405.3175,-112854948235.7686
1744022280275,0.011,3.9746,1.0977,2.317,0.1828,-64.992,13553.9311,397.2312,-112854948242.5535
1744022280379,0.0176,3.9678,1.0852,2.5307,-0.0386,-64.9844,13283.1714,389.2822,-112854948249.3285
1744022280484,0.0093,3.9658,1.0857,2.5384,0.1599,-64.8775,13017.8276,381.5148,-112854948256.0962
1744022280589,0.0149,3.9634,1.0889,2.5078,-0.1607,-64.9539,12757.7878,373.8683,-112854948262.9055
1744022280694,0.0103,3.9688,1.0852,2.3704,-0.2218,-64.9615,12502.9373,366.3696,-112854948269.7523
1744022280798,0.012,3.9656,1.0837,2.462,-0.0233,-65.1218,12253.1912,359.0409,-112854948276.5533
1744022280903,0.0137,3.967,1.0881,2.3323,0.0377,-64.847,12008.4257,351.8646,-112854948283.3281
1744022281007,0.0132,3.967,1.0852,2.401,-0.1378,-64.8852,11768.563,344.814,-112854948290.099
1744022281112,0.0146,3.9683,1.082,2.5918,0.053,-64.9386,11533.518,337.9235,-112854948296.8736
1744022281216,0.0127,3.9702,1.0908,2.4086,-0.1684,-65.0302,11303.1532,331.1487,-112854948303.6646
1744022281320,0.0105,3.9707,1.082,2.4849,0.1141,-64.9844,11077.4058,324.539,-112854948310.4473
